File: _downloads/7eaf1e70bc187917fd4e42b491723bc3/01_GaFeO3_XRD.csv
2theta/Degree,Intensity_GFO(Ga/Fe=1),Normalised_XRD_different ratio,Ga/Fe=1,Normalised_XRD_different ratio,Ga/Fe=0.5
20,86.06418,20,6.26E-04,20,0.01343
20.05904,122.781,20.05904,8.94E-04,20.05904,0.00909
20.11808,194.492,20.11808,0.00142,20.11808,0.00873
20.17712,343.824,20.17712,0.0025,20.17712,0.01004
20.23616,645.915,20.23616,0.0047,20.23616,0.01392
20.2952,1533.68,20.2952,0.01116,20.2952,0.02428
20.35423,2813.64,20.35423,0.02048,20.35423,0.01565
20.41327,2511.37,20.41327,0.01828,20.41327,0.01682
20.47231,1829.1,20.47231,0.01331,20.47231,0.00795
20.53135,831.033,20.53135,0.00605,20.53135,0.00676
20.59039,325.538,20.59039,0.00237,20.59039,0.00525
20.64943,181.975,20.64943,0.00132,20.64943,0.00628
20.70847,122.889,20.70847,8.94E-04,20.70847,0.00521
20.76751,87.73283,20.76751,6.39E-04,20.76751,0.00661
20.82655,65.26649,20.82655,4.75E-04,20.82655,0.00615
20.88559,50.40967,20.88559,3.67E-04,20.88559,0.00437
20.94463,40.12556,20.94463,2.92E-04,20.94463,0.00233
21.00366,32.70981,21.00366,2.38E-04,21.00366,0.00377
21.0627,27.18307,21.0627,1.98E-04,21.0627,0.00144
21.12174,22.95212,21.12174,1.67E-04,21.12174,0.00578
21.18078,19.64019,21.18078,1.43E-04,21.18078,0.00501
21.23982,16.9985,21.23982,1.24E-04,21.23982,0.00467
21.29886,14.85726,21.29886,1.08E-04,21.29886,0.0041
21.3579,12.71056,21.3579,9.25E-05,21.3579,0.00411
21.41694,9.26159,21.41694,6.74E-05,21.41694,0.0063
21.47598,7.10301,21.47598,5.17E-05,21.47598,0.00398
21.53502,5.66476,21.53502,4.12E-05,21.53502,0.00436
21.59406,5.82833,21.59406,4.24E-05,21.59406,0.00568
21.65309,6.69036,21.65309,4.87E-05,21.65309,0.00166
21.71213,7.75864,21.71213,5.65E-05,21.71213,0.00723
21.77117,9.10459,21.77117,6.63E-05,21.77117,0.00465
21.83021,10.83335,21.83021,7.89E-05,21.83021,0.00831
21.88925,13.10493,21.88925,9.54E-05,21.88925,0.003
21.94829,16.17241,21.94829,1.18E-04,21.94829,0.0029
22.00733,20.45517,22.00733,1.49E-04,22.00733,0.00294
22.06637,26.69003,22.06637,1.94E-04,22.06637,0.00209
22.12541,36.2959,22.12541,2.64E-04,22.12541,0.00876
22.18445,52.59746,22.18445,3.83E-04,22.18445,0.00695
22.24349,85.14339,22.24349,6.20E-04,22.24349,0.00791
22.30252,155.9082,22.30252,0.00113,22.30252,0.00338
22.36156,305.703,22.36156,0.00223,22.36156,0.00857
22.4206,764.432,22.4206,0.00556,22.4206,0.011
22.47964,1455.75,22.47964,0.0106,22.47964,0.00697
22.53868,953.284,22.53868,0.00694,22.53868,0.00623
22.59772,319.2606,22.59772,0.00232,22.59772,0.0077
22.65676,127.544,22.65676,9.28E-04,22.65676,0.00703
22.7158,75.70763,22.7158,5.51E-04,22.7158,0.00925
22.77484,50.98629,22.77484,3.71E-04,22.77484,0.00667
22.83388,35.9353,22.83388,2.62E-04,22.83388,0.00783
22.89292,26.49831,22.89292,1.93E-04,22.89292,0.00865
22.95195,20.32278,22.95195,1.48E-04,22.95196,0.00759
23.01099,16.07654,23.01099,1.17E-04,23.01099,0.00829
23.07003,13.03349,23.07003,9.49E-05,23.07003,0.01129
23.12907,10.7788,23.12907,7.85E-05,23.12907,0.00803
23.18811,9.06205,23.18811,6.60E-05,23.18811,0.01203
23.24715,7.72487,23.24715,5.62E-05,23.24715,0.01062
23.30619,6.66311,23.30619,4.85E-05,23.30619,0.00769
23.36523,5.80604,23.36523,4.23E-05,23.36523,0.00757
23.42427,5.10426,23.42427,3.72E-05,23.42427,0.01115
23.48331,3.83835,23.48331,2.79E-05,23.48331,0.01366
23.54235,1.18898,23.54235,8.65E-06,23.54235,0.00865
23.60138,0.04443,23.60138,3.23E-07,23.60139,0.0117
23.66042,0,23.66042,0,23.66042,0.01289
23.71946,0,23.71946,0,23.71946,0.00924
23.7785,0,23.7785,0,23.7785,0.01323
23.83754,0,23.83754,0,23.83754,0.01413
23.89658,0,23.89658,0,23.89658,0.01671
23.95562,0,23.95562,0,23.95562,0.01137
24.01466,0,24.01466,0,24.01466,0.01704
24.0737,0,24.0737,0,24.0737,0.01578
24.13274,0,24.13274,0,24.13274,0.01589
24.19178,0,24.19178,0,24.19178,0.01358
24.25082,0,24.25082,0,24.25082,0.02164
24.30985,0,24.30985,0,24.30985,0.02572
24.36889,0,24.36889,0,24.36889,0.02014
24.42793,0,24.42793,0,24.42793,0.01663
24.48697,0,24.48697,0,24.48697,0.015
24.54601,0,24.54601,0,24.54601,0.01616
24.60505,0,24.60505,0,24.60505,0.01945
24.66409,0,24.66409,0,24.66409,0.01576
24.72313,0,24.72313,0,24.72313,0.01614
24.78217,0,24.78217,0,24.78217,0.01973
24.84121,0,24.84121,0,24.84121,0.0155
24.90025,0,24.90025,0,24.90025,0.01877
24.95928,0,24.95928,0,24.95928,0.01426
25.01832,0,25.01832,0,25.01832,0.01678
25.07736,0,25.07736,0,25.07736,0.02012
25.1364,0,25.1364,0,25.1364,0.02041
25.19544,0,25.19544,0,25.19544,0.01927
25.25448,0,25.25448,0,25.25448,0.02288
25.31352,0,25.31352,0,25.31352,0.01883
25.37256,0,25.37256,0,25.37256,0.0189
25.4316,0,25.4316,0,25.4316,0.02325
25.49064,0,25.49064,0,25.49064,0.01922
25.54968,0,25.54968,0,25.54968,0.01988
25.60871,0,25.60871,0,25.60871,0.01957
25.66775,0,25.66775,0,25.66775,0.02041
25.72679,0,25.72679,0,25.72679,0.02077
25.78583,0,25.78583,0,25.78583,0.02172
25.84487,0,25.84487,0,25.84487,0.01958
25.90391,0,25.90391,0,25.90391,0.02347
25.96295,5.51192,25.96295,4.01E-05,25.96295,0.02275
26.02199,14.34314,26.02199,1.04E-04,26.02199,0.02689
26.08103,19.83964,26.08103,1.44E-04,26.08103,0.02237
26.14007,22.5881,26.14007,1.64E-04,26.14007,0.02033
26.19911,25.85208,26.19911,1.88E-04,26.19911,0.02298
26.25814,29.87804,26.25814,2.17E-04,26.25814,0.02368
26.31718,34.92293,26.31718,2.54E-04,26.31718,0.02242
26.37622,41.3618,26.37622,3.01E-04,26.37622,0.02606
26.43526,49.75946,26.43526,3.62E-04,26.43526,0.02694
26.4943,60.9983,26.4943,4.44E-04,26.4943,0.02431
26.55334,76.51901,26.55334,5.57E-04,26.55334,0.02435
26.61238,98.80565,26.61238,7.19E-04,26.61238,0.02981
26.67142,132.4901,26.67142,9.64E-04,26.67142,0.02955
26.73046,187.664,26.73046,0.00137,26.73046,0.02658
26.7895,291.497,26.7895,0.00212,26.7895,0.02575
26.84854,511.779,26.84854,0.00373,26.84854,0.03461
26.90757,997.39,26.90757,0.00726,26.90757,0.04853
26.96661,2412.23,26.96661,0.01756,26.96661,0.06712
27.02565,5658.94,27.02565,0.04119,27.02565,0.05556
27.08469,4685.66,27.08469,0.03411,27.08469,0.0359
27.14373,2210.12,27.14373,0.01609,27.14373,0.03034
27.20277,881.674,27.20277,0.00642,27.20277,0.02929
27.26181,555.38,27.26181,0.00404,27.26181,0.03149
27.32085,459.416,27.32085,0.00334,27.32085,0.03161
27.37989,431.255,27.37989,0.00314,27.37989,0.02978
27.43893,445.985,27.43893,0.00325,27.43893,0.03422
27.49797,499.468,27.49797,0.00364,27.49797,0.03712
27.557,598.219,27.557,0.00435,27.557,0.03647
27.61604,765.223,27.61604,0.00557,27.61604,0.03471
27.67508,1056.47,27.67508,0.00769,27.67508,0.04227
27.73412,1607.55,27.73412,0.0117,27.73412,0.04579
27.79316,2778.94,27.79316,0.02023,27.79316,0.08236
27.8522,5648.29,27.8522,0.04111,27.8522,0.16097
27.91124,14458.2,27.91124,0.10524,27.91124,0.23595
27.97028,24426.8,27.97028,0.1778,27.97028,0.16718
28.02932,29119.7,28.02932,0.21196,28.02932,0.08737
28.08836,17512.6,28.08836,0.12747,28.08836,0.03848
28.1474,6396.6,28.1474,0.04656,28.1474,0.03717
28.20643,2653.74,28.20643,0.01932,28.20643,0.03329
28.26547,1605.31,28.26547,0.01168,28.26547,0.03357
28.32451,1124.18,28.32451,0.00818,28.32451,0.03616
28.38355,865.065,28.38355,0.0063,28.38355,0.03014
28.44259,750.8326,28.44259,0.00547,28.44259,0.02945
28.50163,779.816,28.50163,0.00568,28.50163,0.03698
28.56067,1029.83,28.56067,0.0075,28.56067,0.0421
28.61971,1926.49,28.61971,0.01402,28.61971,0.05649
28.67875,4458.89,28.67875,0.03246,28.67875,0.04825
28.73779,3878.14,28.73779,0.02823,28.73779,0.03473
28.79683,2104.12,28.79683,0.01532,28.79683,0.03283
28.85586,796.59,28.85586,0.0058,28.85587,0.03814
28.9149,426.7147,28.9149,0.00311,28.9149,0.03146
28.97394,267.7544,28.97394,0.00195,28.97394,0.03061
29.03298,155.985,29.03298,0.00114,29.03298,0.03061
29.09202,97.9872,29.09202,7.13E-04,29.09202,0.03149
29.15106,71.89597,29.15106,5.23E-04,29.15106,0.0329
29.2101,55.9923,29.2101,4.08E-04,29.2101,0.03174
29.26914,44.83862,29.26914,3.26E-04,29.26914,0.03012
29.32818,36.71541,29.32818,2.67E-04,29.32818,0.03588
29.38722,30.61613,29.38722,2.23E-04,29.38722,0.03282
29.44626,25.92004,29.44626,1.89E-04,29.44626,0.03283
29.50529,40.72317,29.50529,2.96E-04,29.5053,0.03238
29.56433,142.012,29.56433,0.00103,29.56433,0.0352
29.62337,211.712,29.62337,0.00154,29.62337,0.03362
29.68241,257.028,29.68241,0.00187,29.68241,0.035
29.74145,290.317,29.74145,0.00211,29.74145,0.03425
29.80049,336.588,29.80049,0.00245,29.80049,0.03375
29.85953,401.576,29.85953,0.00292,29.85953,0.03805
29.91857,491.085,29.91857,0.00357,29.91857,0.03897
29.97761,614.262,29.97761,0.00447,29.97761,0.03959
30.03665,790.396,30.03665,0.00575,30.03665,0.03716
30.09569,1054.87,30.09569,0.00768,30.09569,0.04602
30.15472,1479.25,30.15472,0.01077,30.15473,0.04651
30.21376,2240.06,30.21376,0.01631,30.21376,0.05971
30.2728,3876.93,30.2728,0.02822,30.2728,0.1056
30.33184,7810.38,30.33184,0.05685,30.33184,0.33856
30.39088,20006.1,30.39088,0.14562,30.39088,0.35038
30.44992,57862,30.44992,0.42117,30.44992,0.22157
30.50896,45115.6,30.50896,0.32839,30.50896,0.06913
30.568,24718.2,30.568,0.17992,30.568,0.04794
30.62704,7520.21,30.62704,0.05474,30.62704,0.04342
30.68608,3527.9,30.68608,0.02568,30.68608,0.03925
30.74512,2182.11,30.74512,0.01588,30.74512,0.03841
30.80415,1467.91,30.80415,0.01068,30.80416,0.03931
30.86319,1047.99,30.86319,0.00763,30.86319,0.03931
30.92223,785.254,30.92223,0.00572,30.92223,0.03908
30.98127,610.397,30.98127,0.00444,30.98127,0.03375
31.04031,488.146,31.04031,0.00355,31.04031,0.03236
31.09935,399.307,31.09935,0.00291,31.09935,0.03619
31.15839,332.713,31.15839,0.00242,31.15839,0.03916
31.21743,282.6,31.21743,0.00206,31.21743,0.03251
31.27647,247.611,31.27647,0.0018,31.27647,0.03285
31.33551,216.414,31.33551,0.00158,31.33551,0.03739
31.39455,107.728,31.39455,7.84E-04,31.39455,0.03712
31.45358,44.53166,31.45358,3.24E-04,31.45359,0.03442
31.51262,16.81344,31.51262,1.22E-04,31.51262,0.03665
31.57166,19.63624,31.57166,1.43E-04,31.57166,0.03102
31.6307,23.23494,31.6307,1.69E-04,31.6307,0.03698
31.68974,27.92244,31.68974,2.03E-04,31.68974,0.03629
31.74878,34.18684,31.74878,2.49E-04,31.74878,0.03585
31.80782,42.82386,31.80782,3.12E-04,31.80782,0.03693
31.86686,55.20266,31.86686,4.02E-04,31.86686,0.0424
31.9259,73.85842,31.9259,5.38E-04,31.9259,0.04047
31.98494,104.162,31.98494,7.58E-04,31.98494,0.04101
32.04398,160.152,32.04398,0.00117,32.04398,0.04532
32.10301,278.604,32.10301,0.00203,32.10302,0.04259
32.16205,574.914,32.16205,0.00418,32.16205,0.05842
32.22109,1652.28,32.22109,0.01203,32.22109,0.05991
32.28013,3739.27,32.28013,0.02722,32.28013,0.05122
32.33917,3121.41,32.33917,0.02272,32.33917,0.0447
32.39821,2090.5,32.39821,0.01522,32.39821,0.0415
32.45725,1195.54,32.45725,0.0087,32.45725,0.04102
32.51629,1042.5,32.51629,0.00759,32.51629,0.0414
32.57533,1106.17,32.57533,0.00805,32.57533,0.04396
32.63437,1259.73,32.63437,0.00917,32.63437,0.04279
32.69341,1500.61,32.69341,0.01092,32.69341,0.04473
32.75245,1856.83,32.75245,0.01352,32.75245,0.04729
32.81148,2387.26,32.81148,0.01738,32.81148,0.05863
32.87052,3209.4,32.87052,0.02336,32.87052,0.07159
32.92956,4586.21,32.92956,0.03338,32.92956,0.08815
32.9886,7235.43,32.9886,0.05267,32.9886,0.12994
33.04764,13018,33.04764,0.09476,33.04764,0.31387
33.10668,27430.7,33.10668,0.19967,33.10668,0.91278
33.16572,77402.1,33.16572,0.5634,33.16572,0.71823
33.22476,137383.377,33.22476,1,33.22476,0.49814
33.2838,98184,33.2838,0.71467,33.2838,0.15618
33.34284,47195,33.34284,0.34353,33.34284,0.12299
33.40188,16026,33.40188,0.11665,33.40188,0.09398
33.46091,8114.64,33.46091,0.05907,33.46091,0.07276
33.51995,5182.08,33.51995,0.03772,33.51995,0.05165
33.57899,3572.5,33.57899,0.026,33.57899,0.04989
33.63803,2594.63,33.63803,0.01889,33.63803,0.04326
33.69707,1968.06,33.69707,0.01433,33.69707,0.04489
33.75611,1544.17,33.75611,0.01124,33.75611,0.04019
33.81515,1244.07,33.81515,0.00906,33.81515,0.03921
33.87419,1023.79,33.87419,0.00745,33.87419,0.04277
33.93323,857.306,33.93323,0.00624,33.93323,0.04254
33.99227,728.409,33.99227,0.0053,33.99227,0.04111
34.05131,626.568,34.05131,0.00456,34.05131,0.03634
34.11034,544.702,34.11034,0.00396,34.11034,0.04125
34.16938,475.29,34.16938,0.00346,34.16938,0.03721
34.22842,251.642,34.22842,0.00183,34.22842,0.0391
34.28746,98.70312,34.28746,7.18E-04,34.28746,0.04372
34.3465,28.58387,34.3465,2.08E-04,34.3465,0.04293
34.40554,83.08966,34.40554,6.05E-04,34.40554,0.04099
34.46458,121.475,34.46458,8.84E-04,34.46458,0.04174
34.52362,151.9823,34.52362,0.00111,34.52362,0.04466
34.58266,191.2721,34.58266,0.00139,34.58266,0.04244
34.6417,231.577,34.6417,0.00169,34.6417,0.03882
34.70074,278.474,34.70074,0.00203,34.70074,0.04339
34.75977,329.565,34.75977,0.0024,34.75977,0.0421
34.81881,396.057,34.81881,0.00288,34.81881,0.04231
34.87785,485.593,34.87785,0.00353,34.87785,0.04659
34.93689,610.592,34.93689,0.00444,34.93689,0.04525
34.99593,793.5156,34.99593,0.00578,34.99593,0.0485
35.05497,1080.22,35.05497,0.00786,35.05497,0.04979
35.11401,1586.32,35.11401,0.01155,35.11401,0.06067
35.17305,2623.33,35.17305,0.01909,35.17305,0.0897
35.23209,5158.72,35.23209,0.03755,35.23209,0.15995
35.29113,13824.2,35.29113,0.10063,35.29113,0.1393
35.35017,23044.2,35.35017,0.16774,35.35017,0.19032
35.4092,26050.2,35.4092,0.18962,35.40921,0.17196
35.46824,26801.6,35.46824,0.19509,35.46824,0.14768
35.52728,18799.2,35.52728,0.13684,35.52728,0.14163
35.58632,15515.9,35.58632,0.11294,35.58632,0.10343
35.64536,15313.2,35.64536,0.11146,35.64536,0.08838
35.7044,10398.4,35.7044,0.07569,35.7044,0.0674
35.76344,6024.96,35.76344,0.04386,35.76344,0.07653
35.82248,2565.52,35.82248,0.01867,35.82248,0.0585
35.88152,1535.75,35.88152,0.01118,35.88152,0.05284
35.94056,1166.63,35.94056,0.00849,35.94056,0.04687
35.9996,973.326,35.9996,0.00708,35.9996,0.0414
36.05863,854.976,36.05863,0.00622,36.05864,0.03985
36.11767,789,36.11767,0.00574,36.11767,0.03988
36.17671,767.394,36.17671,0.00559,36.17671,0.04054
36.23575,783.701,36.23575,0.0057,36.23575,0.04377
36.29479,815.619,36.29479,0.00594,36.29479,0.05038
36.35383,906.1,36.35383,0.0066,36.35383,0.04096
36.41287,1067.15,36.41287,0.00777,36.41287,0.04465
36.47191,1351.45,36.47191,0.00984,36.47191,0.04416
36.53095,1837.67,36.53095,0.01338,36.53095,0.05121
36.58999,2768.4,36.58999,0.02015,36.58999,0.06465
36.64903,4870.19,36.64903,0.03545,36.64903,0.12381
36.70806,11152.4,36.70806,0.08118,36.70807,0.17807
36.7671,22277.763,36.7671,0.16216,36.7671,0.17175
36.82614,21516.3,36.82614,0.15661,36.82614,0.32918
36.88518,30621.2,36.88518,0.22289,36.88518,0.26612
36.94422,49027.2,36.94422,0.35686,36.94422,0.21144
37.00326,34765.9,37.00326,0.25306,37.00326,0.09605
37.0623,23636.7,37.0623,0.17205,37.0623,0.057
37.12134,8730.73,37.12134,0.06355,37.12134,0.04971
37.18038,3890.69,37.18038,0.02832,37.18038,0.04298
37.23942,2389.02,37.23942,0.01739,37.23942,0.04195
37.29846,1650.07,37.29846,0.01201,37.29846,0.04499
37.35749,1203.932,37.35749,0.00876,37.3575,0.04116
37.41653,917.356,37.41653,0.00668,37.41653,0.0478
37.47557,723.831,37.47557,0.00527,37.47557,0.04468
37.53461,587.162,37.53461,0.00427,37.53461,0.04075
37.59365,500.838,37.59365,0.00365,37.59365,0.04279
37.65269,437.216,37.65269,0.00318,37.65269,0.04455
37.71173,393.081,37.71173,0.00286,37.71173,0.04486
37.77077,356.842,37.77077,0.0026,37.77077,0.04138
37.82981,323.091,37.82981,0.00235,37.82981,0.04302
37.88885,288.159,37.88885,0.0021,37.88885,0.04279
37.94789,277.229,37.94789,0.00202,37.94789,0.04303
38.00692,241.1719,38.00692,0.00176,38.00693,0.04153
38.06596,270.465,38.06596,0.00197,38.06596,0.04231
38.125,392.348,38.125,0.00286,38.125,0.04225
38.18404,826.79,38.18404,0.00602,38.18404,0.04958
38.24308,1397.48,38.24308,0.01017,38.24308,0.04985
38.30212,1411.11,38.30212,0.01027,38.30212,0.07433
38.36116,1982.4,38.36116,0.01443,38.36116,0.11059
38.4202,4967.67,38.4202,0.03616,38.4202,0.07311
38.47924,10614.2,38.47924,0.07726,38.47924,0.06573
38.53828,6262.25,38.53828,0.04558,38.53828,0.04825
38.59732,4546.14,38.59732,0.03309,38.59732,0.04847
38.65635,1306.33,38.65635,0.00951,38.65636,0.04559
38.71539,582.973,38.71539,0.00424,38.71539,0.04176
38.77443,377.956,38.77443,0.00275,38.77443,0.04297
38.83347,273.332,38.83347,0.00199,38.83347,0.04127
38.89251,221.078,38.89251,0.00161,38.89251,0.04367
38.95155,187.003,38.95155,0.00136,38.95155,0.04486
39.01059,168.144,39.01059,0.00122,39.01059,0.04308
39.06963,160.238,39.06963,0.00117,39.06963,0.04098
39.12867,161.232,39.12867,0.00117,39.12867,0.0428
39.18771,170.899,39.18771,0.00124,39.18771,0.04424
39.24675,190.65,39.24675,0.00139,39.24675,0.04367
39.30578,223.266,39.30578,0.00163,39.30579,0.04695
39.36482,261.501,39.36482,0.0019,39.36482,0.04749
39.42386,352.434,39.42386,0.00257,39.42386,0.04382
39.4829,515.837,39.4829,0.00375,39.4829,0.04909
39.54194,866.784,39.54194,0.00631,39.54194,0.06242
39.60098,1699.46,39.60098,0.01237,39.60098,0.12688
39.66002,4499.63,39.66002,0.03275,39.66002,0.10477
39.71906,12811.209,39.71906,0.09325,39.71906,0.09734
39.7781,9777.06,39.7781,0.07117,39.7781,0.06085
39.83714,8149.2,39.83714,0.05932,39.83714,0.05072
39.89618,3294.44,39.89618,0.02398,39.89618,0.04918
39.95521,1253.42,39.95521,0.00912,39.95522,0.04739
40.01425,773.363,40.01425,0.00563,40.01425,0.04491
40.07329,596.235,40.07329,0.00434,40.07329,0.04427
40.13233,527.738,40.13233,0.00384,40.13233,0.04496
40.19137,532.764,40.19137,0.00388,40.19137,0.04979
40.25041,615.524,40.25041,0.00448,40.25041,0.04695
40.30945,825.433,40.30945,0.00601,40.30945,0.05609
40.36849,1339.34,40.36849,0.00975,40.36849,0.0775
40.42753,2937.88,40.42753,0.02138,40.42753,0.08657
40.48657,6108.7,40.48657,0.04446,40.48657,0.09928
40.54561,6127.68,40.54561,0.0446,40.54561,0.15791
40.60464,10651.7,40.60464,0.07753,40.60465,0.09546
40.66368,14606.8,40.66368,0.10632,40.66369,0.09576
40.72272,9284.22,40.72272,0.06758,40.72272,0.05537
40.78176,6809.88,40.78176,0.04957,40.78176,0.04887
40.8408,2476.25,40.8408,0.01802,40.8408,0.04512
40.89984,1174.06,40.89984,0.00855,40.89984,0.04434
40.95888,796.797,40.95888,0.0058,40.95888,0.04512
41.01792,627.3373,41.01792,0.00457,41.01792,0.05388
41.07696,552.523,41.07696,0.00402,41.07696,0.04964
41.136,548.58,41.136,0.00399,41.136,0.04853
41.19504,627.8958,41.19504,0.00457,41.19504,0.05197
41.25408,818.171,41.25408,0.00596,41.25408,0.0568
41.31311,1337.673,41.31311,0.00974,41.31312,0.09148
41.37215,3149.14,41.37215,0.02292,41.37215,0.06886
41.43119,6005.4,41.43119,0.04371,41.43119,0.07361
41.49023,4252.96,41.49023,0.03096,41.49023,0.05636
41.54927,3706.89,41.54927,0.02698,41.54927,0.05494
41.60831,2136.73,41.60831,0.01555,41.60831,0.05369
41.66735,2066.89,41.66735,0.01504,41.66735,0.07763
41.72639,3484.62,41.72639,0.02536,41.72639,0.14223
41.78543,9043.67,41.78543,0.06583,41.78543,0.1358
41.84447,19361.9,41.84447,0.14093,41.84447,0.11234
41.90351,13284.2,41.90351,0.09669,41.90351,0.08135
41.96254,11101.3,41.96254,0.08081,41.96255,0.05401
42.02158,4551.93,42.02158,0.03313,42.02158,0.05109
42.08062,1757.47,42.08062,0.01279,42.08062,0.04351
42.13966,1013.55,42.13966,0.00738,42.13966,0.04946
42.1987,715.87,42.1987,0.00521,42.1987,0.04502
42.25774,590.836,42.25774,0.0043,42.25774,0.04703
42.31678,677.426,42.31678,0.00493,42.31678,0.0508
42.37582,949.5845,42.37582,0.00691,42.37582,0.05131
42.43486,728.301,42.43486,0.0053,42.43486,0.04767
42.4939,692.259,42.4939,0.00504,42.4939,0.0482
42.55294,395.247,42.55294,0.00288,42.55294,0.04497
42.61197,260.006,42.61197,0.00189,42.61198,0.04605
42.67101,166.84,42.67101,0.00121,42.67101,0.04434
42.73005,119.518,42.73005,8.70E-04,42.73005,0.04515
42.78909,96.85808,42.78909,7.05E-04,42.78909,0.04315
42.84813,81.73965,42.84813,5.95E-04,42.84813,0.04661
42.90717,53.55291,42.90717,3.90E-04,42.90717,0.04661
42.96621,29.32412,42.96621,2.13E-04,42.96621,0.04262
43.02525,15.16166,43.02525,1.10E-04,43.02525,0.04261
43.08429,6.76342,43.08429,4.92E-05,43.08429,0.04305
43.14333,5.88737,43.14333,4.29E-05,43.14333,0.04483
43.20237,5.23474,43.20237,3.81E-05,43.20237,0.0436
43.2614,4.78287,43.2614,3.48E-05,43.26141,0.04042
43.32044,4.50498,43.32044,3.28E-05,43.32044,0.04148
43.37948,4.39801,43.37948,3.20E-05,43.37948,0.04218
43.43852,4.32008,43.43852,3.14E-05,43.43852,0.04217
43.49756,3.69271,43.49756,2.69E-05,43.49756,0.04437
43.5566,4.20129,43.5566,3.06E-05,43.5566,0.04644
43.61564,5.44082,43.61564,3.96E-05,43.61564,0.04603
43.67468,9.15343,43.67468,6.66E-05,43.67468,0.04605
43.73372,18.82819,43.73372,1.37E-04,43.73372,0.04479
43.79276,56.27882,43.79276,4.10E-04,43.79276,0.04494
43.8518,136.052,43.8518,9.90E-04,43.8518,0.04119
43.91083,109.628,43.91083,7.98E-04,43.91084,0.04391
43.96987,86.47248,43.96987,6.29E-04,43.96987,0.04545
44.02891,46.64522,44.02891,3.40E-04,44.02891,0.04595
44.08795,15.35459,44.08795,1.12E-04,44.08795,0.04551
44.14699,7.65986,44.14699,5.58E-05,44.14699,0.04399
44.20603,9.93762,44.20603,7.23E-05,44.20603,0.04504
44.26507,11.29495,44.26507,8.22E-05,44.26507,0.04109
44.32411,13.96014,44.32411,1.02E-04,44.32411,0.04256
44.38315,15.91464,44.38315,1.16E-04,44.38315,0.04398
44.44219,17.55082,44.44219,1.28E-04,44.44219,0.04468
44.50123,19.74853,44.50123,1.44E-04,44.50123,0.04466
44.56026,22.62064,44.56026,1.65E-04,44.56027,0.046
44.6193,28.02454,44.6193,2.04E-04,44.6193,0.03962
44.67834,36.52909,44.67834,2.66E-04,44.67834,0.04714
44.73738,44.70676,44.73738,3.25E-04,44.73738,0.0416
44.79642,56.21253,44.79642,4.09E-04,44.79642,0.04399
44.85546,75.27254,44.85546,5.48E-04,44.85546,0.04496
44.9145,106.266,44.9145,7.74E-04,44.9145,0.04793
44.97354,143.626,44.97354,0.00105,44.97354,0.04388
45.03258,209.167,45.03258,0.00152,45.03258,0.04847
45.09162,332.1221,45.09162,0.00242,45.09162,0.04967
45.15066,617.624,45.15066,0.0045,45.15066,0.0726
45.20969,1567.97,45.20969,0.01141,45.2097,0.05935
45.26873,3706.28,45.26873,0.02698,45.26873,0.06018
45.32777,2820.95,45.32777,0.02053,45.32777,0.05542
45.38681,2436.75,45.38681,0.01774,45.38681,0.05042
45.44585,1484.54,45.44585,0.01081,45.44585,0.0485
45.50489,766.368,45.50489,0.00558,45.50489,0.05055
45.56393,724.034,45.56393,0.00527,45.56393,0.05605
45.62297,1113.15,45.62297,0.0081,45.62297,0.06425
45.68201,2483.32,45.68201,0.01808,45.68201,0.05853
45.74105,3232.52,45.74105,0.02353,45.74105,0.08066
45.80009,3079.62,45.80009,0.02242,45.80009,0.11061
45.85912,5343.7,45.85912,0.0389,45.85913,0.06878
45.91816,8354.95,45.91816,0.06081,45.91816,0.07316
45.9772,5325.62,45.9772,0.03876,45.9772,0.06736
46.03624,5617.78,46.03624,0.04089,46.03624,0.06983
46.09528,5176.45,46.09528,0.03768,46.09528,0.07074
46.15432,5507.17,46.15432,0.04009,46.15432,0.10875
46.21336,5523.64,46.21336,0.04021,46.21336,0.07249
46.2724,9749.15,46.2724,0.07096,46.2724,0.07683
46.33144,6105.46,46.33144,0.04444,46.33144,0.05976
46.39048,5075.67,46.39048,0.03695,46.39048,0.04615
46.44952,2879.26,46.44952,0.02096,46.44952,0.04168
46.50855,1157.9,46.50855,0.00843,46.50856,0.04612
46.56759,628.135,46.56759,0.00457,46.56759,0.04352
46.62663,438.316,46.62663,0.00319,46.62663,0.04789
46.68567,346.795,46.68567,0.00252,46.68567,0.04453
46.74471,294.568,46.74471,0.00214,46.74471,0.0483
46.80375,266.43,46.80375,0.00194,46.80375,0.04411
46.86279,256.429,46.86279,0.00187,46.86279,0.0422
46.92183,261.6829,46.92183,0.0019,46.92183,0.0491
46.98087,279.194,46.98087,0.00203,46.98087,0.04427
47.03991,333.23,47.03991,0.00243,47.03991,0.04873
47.09895,434.601,47.09895,0.00316,47.09895,0.05225
47.15798,645.906,47.15798,0.0047,47.15799,0.05563
47.21702,1132.31,47.21702,0.00824,47.21703,0.09605
47.27606,2750.51,47.27606,0.02002,47.27606,0.10472
47.3351,7874.34,47.3351,0.05732,47.3351,0.07965
47.39414,7721.1,47.39414,0.0562,47.39414,0.08939
47.45318,5667.05,47.45318,0.04125,47.45318,0.08448
47.51222,5609.87,47.51222,0.04083,47.51222,0.07082
47.57126,5669.04,47.57126,0.04126,47.57126,0.06671
47.6303,4185.79,47.6303,0.03047,47.6303,0.05968
47.68934,3032.23,47.68934,0.02207,47.68934,0.05237
47.74838,2269.13,47.74838,0.01652,47.74838,0.04568
47.80741,846.732,47.80741,0.00616,47.80742,0.04582
47.86645,424.782,47.86645,0.00309,47.86646,0.04256
47.92549,283.481,47.92549,0.00206,47.92549,0.04582
47.98453,209.202,47.98453,0.00152,47.98453,0.04639
48.04357,163.372,48.04357,0.00119,48.04357,0.04444
48.10261,133.625,48.10261,9.73E-04,48.10261,0.04501
48.16165,114.033,48.16165,8.30E-04,48.16165,0.04455
48.22069,101.666,48.22069,7.40E-04,48.22069,0.04395
48.27973,95.42123,48.27973,6.95E-04,48.27973,0.04752
48.33877,95.93461,48.33877,6.98E-04,48.33877,0.04099
48.39781,101.257,48.39781,7.37E-04,48.39781,0.04772
48.45684,133.981,48.45684,9.75E-04,48.45685,0.04685
48.51588,227.7,48.51588,0.00166,48.51589,0.04711
48.57492,570.856,48.57492,0.00416,48.57492,0.04954
48.63396,1169.03,48.63396,0.00851,48.63396,0.04806
48.693,790.311,48.693,0.00575,48.693,0.04845
48.75204,705.497,48.75204,0.00514,48.75204,0.04535
48.81108,438.6977,48.81108,0.00319,48.81108,0.04626
48.87012,182.291,48.87012,0.00133,48.87012,0.05072
48.92916,123.87,48.92916,9.02E-04,48.92916,0.04295
48.9882,113.391,48.9882,8.25E-04,48.9882,0.04648
49.04724,121.55,49.04724,8.85E-04,49.04724,0.04778
49.10627,141.801,49.10627,0.00103,49.10628,0.04749
49.16531,177.331,49.16531,0.00129,49.16532,0.04835
49.22435,242.122,49.22435,0.00176,49.22435,0.04571
49.28339,370.2,49.28339,0.00269,49.28339,0.05477
49.34243,659.014,49.34243,0.0048,49.34243,0.0795
49.40147,1621.45,49.40147,0.0118,49.40147,0.07289
49.46051,4573.31,49.46051,0.03329,49.46051,0.06859
49.51955,4603.03,49.51955,0.0335,49.51955,0.0709
49.57859,3119.61,49.57859,0.02271,49.57859,0.06971
49.63763,3107.53,49.63763,0.02262,49.63763,0.09566
49.69667,2044.16,49.69667,0.01488,49.69667,0.06839
49.75571,4319.73,49.75571,0.03144,49.75571,0.07203
49.81474,3644.24,49.81474,0.02653,49.81475,0.05594
49.87378,2251.13,49.87378,0.01639,49.87378,0.04664
49.93282,2358.57,49.93282,0.01717,49.93282,0.04532
49.99186,696.888,49.99186,0.00507,49.99186,0.05057
50.0509,313.362,50.0509,0.00228,50.0509,0.04772
50.10994,205.675,50.10994,0.0015,50.10994,0.04568
50.16898,151.443,50.16898,0.0011,50.16898,0.04845
50.22802,120.33,50.22802,8.76E-04,50.22802,0.04282
50.28706,101.832,50.28706,7.41E-04,50.28706,0.04523
50.3461,91.20315,50.3461,6.64E-04,50.3461,0.04732
50.40514,86.39625,50.40514,6.29E-04,50.40514,0.04772
50.46417,86.88132,50.46417,6.32E-04,50.46418,0.04837
50.52321,92.02672,50.52321,6.70E-04,50.52321,0.04349
50.58225,101.049,50.58225,7.36E-04,50.58225,0.0482
50.64129,128.018,50.64129,9.32E-04,50.64129,0.04563
50.70033,187.069,50.70033,0.00136,50.70033,0.0541
50.75937,344.084,50.75937,0.0025,50.75937,0.05981
50.81841,900.709,50.81841,0.00656,50.81841,0.05728
50.87745,2600.19,50.87745,0.01893,50.87745,0.05654
50.93649,2412.45,50.93649,0.01756,50.93649,0.05434
50.99553,1561.91,50.99553,0.01137,50.99553,0.04897
51.05457,1542.71,51.05457,0.01123,51.05457,0.05072
51.1136,569.4378,51.1136,0.00414,51.11361,0.04342
51.17264,217.546,51.17264,0.00158,51.17264,0.04465
51.23168,126.83,51.23168,9.23E-04,51.23168,0.04959
51.29072,87.48069,51.29072,6.37E-04,51.29072,0.04814
51.34976,65.75405,51.34976,4.79E-04,51.34976,0.04726
51.4088,54.04403,51.4088,3.93E-04,51.4088,0.04933
51.46784,50.29409,51.46784,3.66E-04,51.46784,0.04692
51.52688,58.1919,51.52688,4.24E-04,51.52688,0.04858
51.58592,105.976,51.58592,7.71E-04,51.58592,0.04646
51.64496,230.69,51.64496,0.00168,51.64496,0.04341
51.704,184.214,51.704,0.00134,51.704,0.04259
51.76303,135.205,51.76303,9.84E-04,51.76304,0.04132
51.82207,121.394,51.82207,8.84E-04,51.82207,0.04489
51.88111,51.27315,51.88111,3.73E-04,51.88111,0.0484
51.94015,23.95835,51.94015,1.74E-04,51.94015,0.04793
51.99919,12.88478,51.99919,9.38E-05,51.99919,0.04564
52.05823,9.03006,52.05823,6.57E-05,52.05823,0.04228
52.11727,5.12122,52.11727,3.73E-05,52.11727,0.0452
52.17631,3.48675,52.17631,2.54E-05,52.17631,0.05038
52.23535,18.37567,52.23535,1.34E-04,52.23535,0.04832
52.29439,37.42493,52.29439,2.72E-04,52.29439,0.04754
52.35343,52.09605,52.35343,3.79E-04,52.35343,0.04692
52.41246,82.12673,52.41246,5.98E-04,52.41247,0.0461
52.4715,100.487,52.4715,7.31E-04,52.47151,0.04639
52.53054,120.96,52.53054,8.80E-04,52.53054,0.04791
52.58958,144.997,52.58958,0.00106,52.58958,0.0491
52.64862,171.696,52.64862,0.00125,52.64862,0.04457
52.70766,206.891,52.70766,0.00151,52.70766,0.04758
52.7667,254.494,52.7667,0.00185,52.7667,0.0486
52.82574,321.8192,52.82574,0.00234,52.82574,0.04866
52.88478,422.136,52.88478,0.00307,52.88478,0.05362
52.94382,583.5677,52.94382,0.00425,52.94382,0.0577
53.00286,878.985,53.00286,0.0064,53.00286,0.07365
53.06189,1559.48,53.06189,0.01135,53.0619,0.09822
53.12093,3800.64,53.12093,0.02766,53.12094,0.16172
53.17997,8136.8,53.17997,0.05923,53.17997,0.12508
53.23901,14935.2,53.23901,0.10871,53.23901,0.18342
53.29805,12190.3,53.29805,0.08873,53.29805,0.11141
53.35709,17330.8,53.35709,0.12615,53.35709,0.09484
53.41613,16568.6,53.41613,0.1206,53.41613,0.0765
53.47517,8521.06,53.47517,0.06202,53.47517,0.05565
53.53421,7883.79,53.53421,0.05739,53.53421,0.04943
53.59325,3931.18,53.59325,0.02861,53.59325,0.04796
53.65229,1536,53.65229,0.01118,53.65229,0.04817
53.71132,842.744,53.71132,0.00613,53.71133,0.04656
53.77036,573.222,53.77036,0.00417,53.77037,0.04776
53.8294,422.905,53.8294,0.00308,53.8294,0.04917
53.88844,328.64,53.88844,0.00239,53.88844,0.04582
53.94748,266.877,53.94748,0.00194,53.94748,0.04977
54.00652,226.104,54.00652,0.00165,54.00652,0.04316
54.06556,198.557,54.06556,0.00145,54.06556,0.04936
54.1246,187.701,54.1246,0.00137,54.1246,0.05062
54.18364,202.405,54.18364,0.00147,54.18364,0.05667
54.24268,272.881,54.24268,0.00199,54.24268,0.06208
54.30172,616.0314,54.30172,0.00448,54.30172,0.06865
54.36075,1167.42,54.36075,0.0085,54.36076,0.07123
54.41979,940.63,54.41979,0.00685,54.4198,0.05615
54.47883,708.786,54.47883,0.00516,54.47883,0.05584
54.53787,597.501,54.53787,0.00435,54.53787,0.04571
54.59691,277.894,54.59691,0.00202,54.59691,0.04962
54.65595,106.668,54.65595,7.76E-04,54.65595,0.04414
54.71499,60.67336,54.71499,4.42E-04,54.71499,0.05196
54.77403,44.79962,54.77403,3.26E-04,54.77403,0.04492
54.83307,36.98485,54.83307,2.69E-04,54.83307,0.04778
54.89211,33.36522,54.89211,2.43E-04,54.89211,0.04512
54.95115,32.58034,54.95115,2.37E-04,54.95115,0.04729
55.01018,34.22701,55.01018,2.49E-04,55.01019,0.05317
55.06922,38.7754,55.06922,2.82E-04,55.06923,0.04923
55.12826,47.71585,55.12826,3.47E-04,55.12826,0.04597
55.1873,64.2742,55.1873,4.68E-04,55.1873,0.04861
55.24634,104.206,55.24634,7.59E-04,55.24634,0.04962
55.30538,217.165,55.30538,0.00158,55.30538,0.05287
55.36442,369.582,55.36442,0.00269,55.36442,0.05684
55.42346,360.854,55.42346,0.00263,55.42346,0.06314
55.4825,629.588,55.4825,0.00458,55.4825,0.05966
55.54154,1448.72,55.54154,0.01055,55.54154,0.05945
55.60058,1593.49,55.60058,0.0116,55.60058,0.05875
55.65961,908.117,55.65961,0.00661,55.65962,0.04773
55.71865,991.566,55.71865,0.00722,55.71866,0.05064
55.77769,576.126,55.77769,0.00419,55.77769,0.04561
55.83673,215.765,55.83673,0.00157,55.83673,0.04437
55.89577,115.295,55.89577,8.39E-04,55.89577,0.04708
55.95481,84.89951,55.95481,6.18E-04,55.95481,0.04492
56.01385,73.24813,56.01385,5.33E-04,56.01385,0.05098
56.07289,72.73191,56.07289,5.29E-04,56.07289,0.05131
56.13193,85.27222,56.13193,6.21E-04,56.13193,0.04794
56.19097,131.286,56.19097,9.56E-04,56.19097,0.04798
56.25001,270.19,56.25001,0.00197,56.25001,0.05157
56.30904,416.5475,56.30904,0.00303,56.30905,0.04679
56.36808,508.039,56.36808,0.0037,56.36809,0.05175
56.42712,1087.22,56.42712,0.00791,56.42712,0.0508
56.48616,1137.85,56.48616,0.00828,56.48616,0.05419
56.5452,942.672,56.5452,0.00686,56.5452,0.05018
56.60424,857.73,56.60424,0.00624,56.60424,0.04923
56.66328,686.897,56.66328,0.005,56.66328,0.04837
56.72232,342.621,56.72232,0.00249,56.72232,0.04537
56.78136,213.778,56.78136,0.00156,56.78136,0.04883
56.8404,121.889,56.8404,8.87E-04,56.8404,0.04403
56.89944,62.32522,56.89944,4.54E-04,56.89944,0.04533
56.95847,41.39776,56.95847,3.01E-04,56.95848,0.0463
57.01751,32.0261,57.01751,2.33E-04,57.01752,0.04977
57.07655,26.66593,57.07655,1.94E-04,57.07655,0.04706
57.13559,23.58562,57.13559,1.72E-04,57.13559,0.05051
57.19463,22.14068,57.19463,1.61E-04,57.19463,0.05093
57.25367,22.13418,57.25367,1.61E-04,57.25367,0.04634
57.31271,23.75992,57.31271,1.73E-04,57.31271,0.04455
57.37175,27.23162,57.37175,1.98E-04,57.37175,0.04256
57.43079,35.78183,57.43079,2.60E-04,57.43079,0.04698
57.48983,60.73903,57.48983,4.42E-04,57.48983,0.05197
57.54887,135.291,57.54887,9.85E-04,57.54887,0.05122
57.6079,184.667,57.6079,0.00134,57.60791,0.05548
57.66694,312.765,57.66694,0.00228,57.66695,0.05005
57.72598,864.541,57.72598,0.00629,57.72598,0.05069
57.78502,677.4638,57.78502,0.00493,57.78502,0.0499
57.84406,367.189,57.84406,0.00267,57.84406,0.04599
57.9031,515.984,57.9031,0.00376,57.9031,0.05152
57.96214,244.396,57.96214,0.00178,57.96214,0.0517
58.02118,99.01681,58.02118,7.21E-04,58.02118,0.0469
58.08022,72.91845,58.08022,5.31E-04,58.08022,0.04734
58.13926,68.79772,58.13926,5.01E-04,58.13926,0.04765
58.1983,71.89918,58.1983,5.23E-04,58.1983,0.04989
58.25734,85.76559,58.25734,6.24E-04,58.25734,0.04608
58.31637,110.46,58.31637,8.04E-04,58.31638,0.05054
58.37541,147.012,58.37541,0.00107,58.37541,0.0564
58.43445,224.055,58.43445,0.00163,58.43445,0.06381
58.49349,459.0186,58.49349,0.00334,58.49349,0.04876
58.55253,1465.3,58.55253,0.01067,58.55253,0.05387
58.61157,1996.64,58.61157,0.01453,58.61157,0.05266
58.67061,897.066,58.67061,0.00653,58.67061,0.05181
58.72965,1254.05,58.72965,0.00913,58.72965,0.04904
58.78869,1042.39,58.78869,0.00759,58.78869,0.0538
58.84773,678.724,58.84773,0.00494,58.84773,0.06332
58.90677,973.668,58.90677,0.00709,58.90677,0.08125
58.9658,2309.89,58.9658,0.01681,58.96581,0.10034
59.02484,5299.62,59.02484,0.03858,59.02485,0.0726
59.08388,5170.47,59.08388,0.03764,59.08388,0.08305
59.14292,5784.83,59.14292,0.04211,59.14292,0.08154
59.20196,5659,59.20196,0.04119,59.20196,0.06087
59.261,4513.81,59.261,0.03286,59.261,0.06284
59.32004,3631.53,59.32004,0.02643,59.32004,0.05982
59.37908,3101.63,59.37908,0.02258,59.37908,0.05901
59.43812,3946.73,59.43812,0.02873,59.43812,0.05568
59.49716,2917.67,59.49716,0.02124,59.49716,0.05677
59.5562,1795.64,59.5562,0.01307,59.5562,0.05558
59.61523,1837.58,59.61523,0.01338,59.61524,0.05325
59.67427,1091.81,59.67427,0.00795,59.67428,0.04827
59.73331,480.274,59.73331,0.0035,59.73331,0.04958
59.79235,285.348,59.79235,0.00208,59.79235,0.04959
59.85139,221.608,59.85139,0.00161,59.85139,0.04825
59.91043,193.605,59.91043,0.00141,59.91043,0.05005
59.96947,175.2579,59.96947,0.00128,59.96947,0.04778
60.02851,162.91,60.02851,0.00119,60.02851,0.0485
60.08755,161.207,60.08755,0.00117,60.08755,0.04959
60.14659,167.492,60.14659,0.00122,60.14659,0.04842
60.20563,177.96,60.20563,0.0013,60.20563,0.0486
60.26466,195.755,60.26466,0.00142,60.26467,0.05162
60.3237,230.68,60.3237,0.00168,60.32371,0.05284
60.38274,283.226,60.38274,0.00206,60.38274,0.05571
60.44178,364.457,60.44178,0.00265,60.44178,0.05437
60.50082,518.403,60.50082,0.00377,60.50082,0.06562
60.55986,801.296,60.55986,0.00583,60.55986,0.09174
60.6189,1369.23,60.6189,0.00997,60.6189,0.17485
60.67794,3182.33,60.67794,0.02316,60.67794,0.10997
60.73698,9824.42,60.73698,0.07151,60.73698,0.08828
60.79602,17185.3,60.79602,0.12509,60.79602,0.11728
60.85506,9110.99,60.85506,0.06632,60.85506,0.07167
60.91409,7873.67,60.91409,0.05731,60.9141,0.05742
60.97313,8907.67,60.97313,0.06484,60.97314,0.04972
61.03217,3786.86,61.03217,0.02756,61.03217,0.05529
61.09121,1698.23,61.09121,0.01236,61.09121,0.05844
61.15025,1304.7,61.15025,0.0095,61.15025,0.06097
61.20929,1295.49,61.20929,0.00943,61.20929,0.06387
61.26833,1507.43,61.26833,0.01097,61.26833,0.07957
61.32737,2040.3,61.32737,0.01485,61.32737,0.16175
61.38641,3353.41,61.38641,0.02441,61.38641,0.20749
61.44545,8270.8,61.44545,0.0602,61.44545,0.35796
61.50449,21265.9,61.50449,0.15479,61.50449,0.26645
61.56352,24160.2,61.56352,0.17586,61.56353,0.15906
61.62256,45700.8,61.62256,0.33265,61.62257,0.21983
61.6816,35791.1,61.6816,0.26052,61.6816,0.1205
61.74064,18056.3,61.74064,0.13143,61.74064,0.06991
61.79968,24105,61.79968,0.17546,61.79968,0.05986
61.85872,12229.9,61.85872,0.08902,61.85872,0.05695
61.91776,3860.68,61.91776,0.0281,61.91776,0.05762
61.9768,2203.57,61.9768,0.01604,61.9768,0.06647
62.03584,2044.36,62.03584,0.01488,62.03584,0.0569
62.09488,2770.69,62.09488,0.02017,62.09488,0.05565
62.15392,2321.83,62.15392,0.0169,62.15392,0.06164
62.21295,1464.58,62.21295,0.01066,62.21296,0.05475
62.27199,1573.89,62.27199,0.01146,62.272,0.05477
62.33103,1186.99,62.33103,0.00864,62.33103,0.05547
62.39007,706.576,62.39007,0.00514,62.39007,0.05816
62.44911,725.4028,62.44911,0.00528,62.44911,0.05364
62.50815,1238.2,62.50815,0.00901,62.50815,0.05596
62.56719,1009.63,62.56719,0.00735,62.56719,0.06305
62.62623,722.323,62.62623,0.00526,62.62623,0.06289
62.68527,1294.64,62.68527,0.00942,62.68527,0.05977
62.74431,1268.67,62.74431,0.00923,62.74431,0.05512
62.80335,605.121,62.80335,0.0044,62.80335,0.05323
62.86238,614.717,62.86238,0.00447,62.86239,0.04928
62.92142,629.353,62.92142,0.00458,62.92143,0.04744
62.98046,401.903,62.98046,0.00293,62.98046,0.05543
63.0395,365.005,63.0395,0.00266,63.0395,0.05119
63.09854,427.224,63.09854,0.00311,63.09854,0.05335
63.15758,638.762,63.15758,0.00465,63.15758,0.05193
63.21662,891.783,63.21662,0.00649,63.21662,0.05452
63.27566,857.037,63.27566,0.00624,63.27566,0.05995
63.3347,1121.49,63.3347,0.00816,63.3347,0.06124
63.39374,1811.7,63.39374,0.01319,63.39374,0.07239
63.45278,2801.67,63.45278,0.02039,63.45278,0.115
63.51181,4290.35,63.51181,0.03123,63.51182,0.2437
63.57085,10458.1,63.57085,0.07612,63.57086,0.15088
63.62989,23619.6,63.62989,0.17193,63.62989,0.10795
63.68893,20689.2,63.68893,0.15059,63.68893,0.1572
63.74797,12097.3,63.74797,0.08805,63.74797,0.11214
63.80701,14379.9,63.80701,0.10467,63.80701,0.11824
63.86605,11779.7,63.86605,0.08574,63.86605,0.11464
63.92509,7964.45,63.92509,0.05797,63.92509,0.06929
63.98413,11002,63.98413,0.08008,63.98413,0.08336
64.04317,8675.43,64.04317,0.06315,64.04317,0.08014
64.10221,4786.51,64.10221,0.03484,64.10221,0.06547
64.16124,5760.96,64.16124,0.04193,64.16125,0.06015
64.22028,4407.72,64.22028,0.03208,64.22029,0.05445
64.27932,1818.77,64.27932,0.01324,64.27933,0.05808
64.33836,990.705,64.33836,0.00721,64.33836,0.06315
64.3974,914.221,64.3974,0.00665,64.3974,0.0649
64.45644,1386.09,64.45644,0.01009,64.45644,0.0556
64.51548,1896.09,64.51548,0.0138,64.51548,0.0533
64.57452,1201.79,64.57452,0.00875,64.57452,0.0539
64.63356,921.011,64.63356,0.0067,64.63356,0.05237
64.6926,1049.73,64.6926,0.00764,64.6926,0.04989
64.75164,637.306,64.75164,0.00464,64.75164,0.04816
64.81067,328.782,64.81067,0.00239,64.81068,0.05245
64.86971,220.0026,64.86971,0.0016,64.86972,0.04747
64.92875,152.499,64.92875,0.00111,64.92876,0.04633
64.98779,121.189,64.98779,8.82E-04,64.98779,0.04729
65.04683,104.273,65.04683,7.59E-04,65.04683,0.04861
65.10587,81.61823,65.10587,5.94E-04,65.10587,0.05312
65.16491,79.2628,65.16491,5.77E-04,65.16491,0.04974
65.22395,85.40035,65.22395,6.22E-04,65.22395,0.04512
65.28299,91.87131,65.28299,6.69E-04,65.28299,0.04827
65.34203,109.981,65.34203,8.01E-04,65.34203,0.04891
65.40107,138.066,65.40107,0.001,65.40107,0.05077
65.4601,184.367,65.4601,0.00134,65.46011,0.05411
65.51914,281.777,65.51914,0.00205,65.51915,0.06263
65.57818,589.961,65.57818,0.00429,65.57819,0.05445
65.63722,1530.56,65.63722,0.01114,65.63722,0.05201
65.69626,2335.72,65.69626,0.017,65.69626,0.05679
65.7553,1366.19,65.7553,0.00994,65.7553,0.0578
65.81434,1108.33,65.81434,0.00807,65.81434,0.05362
65.87338,1433.17,65.87338,0.01043,65.87338,0.05663
65.93242,957.332,65.93242,0.00697,65.93242,0.07384
65.99146,698.86,65.99146,0.00509,65.99146,0.06668
66.0505,1080.53,66.0505,0.00787,66.0505,0.05857
66.10953,3101.88,66.10953,0.02258,66.10954,0.06789
66.16857,3999.05,66.16857,0.02911,66.16858,0.07534
66.22761,2106.11,66.22761,0.01533,66.22762,0.10827
66.28665,3444.72,66.28665,0.02507,66.28665,0.12518
66.34569,7839.07,66.34569,0.05706,66.34569,0.07898
66.40473,12008.4,66.40473,0.08741,66.40473,0.07901
66.46377,7677.79,66.46377,0.05589,66.46377,0.09019
66.52281,4669.56,66.52281,0.03399,66.52281,0.06353
66.58185,6228.65,66.58185,0.04534,66.58185,0.05721
66.64089,4414.88,66.64089,0.03214,66.64089,0.06105
66.69993,1762.05,66.69993,0.01283,66.69993,0.05976
66.75897,998.933,66.75897,0.00727,66.75897,0.0643
66.818,1213.62,66.818,0.00883,66.81801,0.05592
66.87704,2196.46,66.87704,0.01599,66.87705,0.06038
66.93608,2256.73,66.93608,0.01643,66.93608,0.05731
66.99512,1599.22,66.99512,0.01164,66.99512,0.05542
67.05416,1933.88,67.05416,0.01408,67.05416,0.05194
67.1132,1705.77,67.1132,0.01242,67.1132,0.05494
67.17224,936.852,67.17224,0.00682,67.17224,0.05349
67.23128,727.784,67.23128,0.0053,67.23128,0.05645
67.29032,523.326,67.29032,0.00381,67.29032,0.05354
67.34936,355.502,67.34936,0.00259,67.34936,0.04352
67.4084,312.584,67.4084,0.00228,67.4084,0.05436
67.46743,247.8842,67.46743,0.0018,67.46744,0.05095
67.52647,237.237,67.52647,0.00173,67.52648,0.05308
67.58551,280.402,67.58551,0.00204,67.58551,0.05242
67.64455,357.13,67.64455,0.0026,67.64455,0.05086
67.70359,605.045,67.70359,0.0044,67.70359,0.05297
67.76263,740.169,67.76263,0.00539,67.76263,0.05243
67.82167,535.582,67.82167,0.0039,67.82167,0.05434
67.88071,562.388,67.88071,0.00409,67.88071,0.0569
67.93975,754.793,67.93975,0.00549,67.93975,0.06472
67.99879,868.934,67.99879,0.00632,67.99879,0.09967
68.05783,1404.84,68.05783,0.01023,68.05783,0.12476
68.11686,3579.8,68.11686,0.02606,68.11687,0.0766
68.1759,8648.22,68.1759,0.06295,68.17591,0.07146
68.23494,9459.58,68.23494,0.06886,68.23494,0.08956
68.29398,5003.54,68.29398,0.03642,68.29398,0.06999
68.35302,4708.24,68.35302,0.03427,68.35302,0.0571
68.41206,5601.7,68.41206,0.04077,68.41206,0.0545
68.4711,3179.44,68.4711,0.02314,68.4711,0.04853
68.53014,1688.73,68.53014,0.01229,68.53014,0.05183
68.58918,842.328,68.58918,0.00613,68.58918,0.05317
68.64822,549.739,68.64822,0.004,68.64822,0.04716
68.70726,585.285,68.70726,0.00426,68.70726,0.0491
68.76629,403.595,68.76629,0.00294,68.7663,0.05258
68.82533,218.832,68.82533,0.00159,68.82534,0.05132
68.88437,152.412,68.88437,0.00111,68.88437,0.04522
68.94341,121.567,68.94341,8.85E-04,68.94341,0.05007
69.00245,101.595,69.00245,7.39E-04,69.00245,0.04909
69.06149,87.67594,69.06149,6.38E-04,69.06149,0.04879
69.12053,79.03249,69.12053,5.75E-04,69.12053,0.04755
69.17957,75.52825,69.17957,5.50E-04,69.17957,0.05121
69.23861,82.21629,69.23861,5.98E-04,69.23861,0.04827
69.29765,117.223,69.29765,8.53E-04,69.29765,0.0531
69.35669,174.477,69.35669,0.00127,69.35669,0.04951
69.41572,169.146,69.41572,0.00123,69.41573,0.04998
69.47476,233.17,69.47476,0.0017,69.47477,0.04945
69.5338,434.756,69.5338,0.00316,69.5338,0.04863
69.59284,398.385,69.59284,0.0029,69.59284,0.04912
69.65188,275.6245,69.65188,0.00201,69.65188,0.05121
69.71092,256.891,69.71092,0.00187,69.71092,0.0498
69.76996,227.866,69.76996,0.00166,69.76996,0.04904
69.829,134.324,69.829,9.78E-04,69.829,0.04589
69.88804,81.13883,69.88804,5.91E-04,69.88804,0.0515
69.94708,37.96345,69.94708,2.76E-04,69.94708,0.05315
70.00612,19.49992,70.00612,1.42E-04,70.00612,0.04967